STUDYID,DOMAIN,USUBJID,SUBJID,RFSTDTC,RFENDTC,RFXSTDTC,RFXENDTC,RFICDTC,RFPENDTC,DTHDTC,DTHFL,SITEID,BRTHDTC,AGE,AGEU,SEX,RACE,ETHNIC,ARMCD,ARM,ACTARMCD,ACTARM,COUNTRY
ABC,DM,ABC-01-049,49,11/7/2006,,,,10/25/2006,,,,1,11/12/1966,39,YEARS,M,WHITE,NOT HISPANIC OR LATINO,4,ARM D,,,
ABC,DM,ABC-01-050,50,11/2/2006,,,,10/25/2006,,,,1,12/19/1958,47,YEARS,M,WHITE,NOT HISPANIC OR LATINO,2,ARM B,,,
ABC,DM,ABC-01-051,51,11/2/2006,,,,10/25/2006,,,,1,5/2/1972,34,YEARS,M,WHITE,NOT HISPANIC OR LATINO,1,ARM A,,,
ABC,DM,ABC-01-052,52,11/6/2006,,,,10/31/2006,,,,1,6/27/1961,45,YEARS,F,WHITE,UNKNOWN,3,ARM C,,,
ABC,DM,ABC-01-053,53,11/8/2006,,,,11/1/2006,,,,1,4/7/1980,26,YEARS,F,WHITE,NOT HISPANIC OR LATINO,2,ARM B,,,
ABC,DM,ABC-01-054,54,11/16/2006,,,,11/7/2006,,,,1,9/13/1962,44,YEARS,M,WHITE,NOT HISPANIC OR LATINO,4,ARM D,,,
ABC,DM,ABC-01-055,55,12/6/2006,,,,10/31/2006,,,,1,6/11/1959,47,YEARS,F,BLACK OR AFRICAN AMERICAN,UNKNOWN,3,ARM C,,,
ABC,DM,ABC-01-056,56,11/28/2006,,,,11/21/2006,,,,1,5/2/1975,31,YEARS,M,WHITE,NOT HISPANIC OR LATINO,1,ARM A,,,
ABC,DM,ABC-01-113,113,12/5/2006,,,,11/28/2006,,,,1,2/8/1932,74,YEARS,M,WHITE,UNKNOWN,4,ARM D,,,
ABC,DM,ABC-01-114,114,12/14/2006,,,,12/1/2006,,,,1,7/9/1934,72,YEARS,F,WHITE,UNKNOWN,2,ARM B,,,
ABC,DM,ABC-02-033,33,10/25/2006,,,,10/16/2006,,,,2,2/1/1968,38,YEARS,F,WHITE,NOT HISPANIC OR LATINO,3,ARM C,,,
ABC,DM,ABC-02-034,34,10/26/2006,,,,10/16/2006,,,,2,10/5/1933,73,YEARS,F,WHITE,NOT HISPANIC OR LATINO,1,ARM A,,,
ABC,DM,ABC-02-035,35,10/31/2006,,,,10/16/2006,,,,2,9/25/1960,46,YEARS,M,WHITE,NOT HISPANIC OR LATINO,2,ARM B,,,
ABC,DM,ABC-02-036,36,11/1/2006,,,,10/23/2006,,,,2,1/1/1971,35,YEARS,M,WHITE,NOT HISPANIC OR LATINO,4,ARM D,,,
ABC,DM,ABC-02-037,37,11/1/2006,,,,10/24/2006,,,,2,7/28/1960,46,YEARS,M,WHITE,HISPANIC OR LATINO,3,ARM C,,,
ABC,DM,ABC-02-038,38,11/13/2006,,,,10/30/2006,,,,2,7/2/1947,59,YEARS,M,WHITE,NOT HISPANIC OR LATINO,1,ARM A,,,
ABC,DM,ABC-02-039,39,11/15/2006,,,,11/6/2006,,,,2,4/11/1971,35,YEARS,M,WHITE,NOT HISPANIC OR LATINO,2,ARM B,,,
ABC,DM,ABC-02-040,40,12/7/2006,,,,11/29/2006,,,,2,3/27/1944,62,YEARS,M,WHITE,NOT HISPANIC OR LATINO,4,ARM D,,,
ABC,DM,ABC-02-109,109,12/7/2006,,,,11/28/2006,,,,2,9/3/1969,37,YEARS,M,WHITE,NOT HISPANIC OR LATINO,1,ARM A,,,
ABC,DM,ABC-02-110,110,12/18/2006,,,,12/11/2006,,,,2,8/12/1966,40,YEARS,F,WHITE,NOT HISPANIC OR LATINO,2,ARM B,,,
ABC,DM,ABC-02-111,111,12/19/2006,,,,12/11/2006,,,,2,7/9/1967,39,YEARS,M,WHITE,NOT HISPANIC OR LATINO,4,ARM D,,,
ABC,DM,ABC-02-112,112,12/19/2006,,,,12/12/2006,,,,2,11/1/1976,30,YEARS,F,WHITE,NOT HISPANIC OR LATINO,3,ARM C,,,
ABC,DM,ABC-03-001,1,10/10/2006,,,,9/26/2006,,,,3,6/16/1941,65,YEARS,M,WHITE,NOT HISPANIC OR LATINO,2,ARM B,,,
ABC,DM,ABC-03-002,2,10/11/2006,,,,9/27/2006,,,,3,3/20/1935,71,YEARS,M,WHITE,NOT HISPANIC OR LATINO,1,ARM A,,,
ABC,DM,ABC-03-003,3,10/11/2006,,,,9/27/2006,,,,3,9/14/1942,64,YEARS,M,WHITE,NOT HISPANIC OR LATINO,4,ARM D,,,
ABC,DM,ABC-03-004,4,10/12/2006,,,,9/27/2006,,,,3,7/8/1961,45,YEARS,M,WHITE,NOT HISPANIC OR LATINO,3,ARM C,,,
ABC,DM,ABC-03-005,5,10/12/2006,,,,9/27/2006,,,,3,12/10/1952,53,YEARS,M,WHITE,NOT HISPANIC OR LATINO,3,ARM C,,,
ABC,DM,ABC-03-006,6,10/25/2006,,,,10/18/2006,,,,3,12/12/1958,47,YEARS,M,WHITE,NOT HISPANIC OR LATINO,1,ARM A,,,
ABC,DM,ABC-03-007,7,10/31/2006,,,,10/27/2006,,,,3,12/1/1948,57,YEARS,M,WHITE,NOT HISPANIC OR LATINO,2,ARM B,,,
ABC,DM,ABC-03-008,8,11/2/2006,11/9/2006,,,10/18/2006,11/9/2006,,,3,8/28/1952,54,YEARS,M,WHITE,NOT HISPANIC OR LATINO,4,ARM D,,,
ABC,DM,ABC-03-089,89,11/21/2006,,,,11/15/2006,,,,3,10/2/1975,31,YEARS,F,UNKNOWN,HISPANIC OR LATINO,4,ARM D,,,
ABC,DM,ABC-03-090,90,12/6/2006,,,,11/30/2006,,,,3,6/17/1926,80,YEARS,M,WHITE,NOT HISPANIC OR LATINO,SCRNFAIL,SCREEN FAILURE,,,
ABC,DM,ABC-03-091,91,12/20/2006,,,,12/11/2006,,,,3,2/20/1955,51,YEARS,F,WHITE,NOT HISPANIC OR LATINO,1,ARM A,,,
ABC,DM,ABC-04-073,73,10/31/2006,,,,10/10/2006,,,,4,1/19/1947,59,YEARS,F,WHITE,NOT HISPANIC OR LATINO,4,ARM D,,,
ABC,DM,ABC-04-074,74,11/1/2006,11/20/2006,,,10/16/2006,11/20/2006,,,4,3/28/1983,23,YEARS,F,WHITE,NOT HISPANIC OR LATINO,3,ARM C,,,
ABC,DM,ABC-04-075,75,11/9/2006,,,,11/2/2006,,,,4,4/7/1943,63,YEARS,M,WHITE,NOT HISPANIC OR LATINO,1,ARM A,,,
ABC,DM,ABC-04-076,76,11/15/2006,,,,10/26/2006,,,,4,12/9/1954,51,YEARS,M,WHITE,NOT HISPANIC OR LATINO,2,ARM B,,,
ABC,DM,ABC-04-077,77,11/15/2006,,,,11/2/2006,,,,4,2/20/1954,52,YEARS,F,WHITE,NOT HISPANIC OR LATINO,3,ARM C,,,
ABC,DM,ABC-04-078,78,12/13/2006,,,,11/21/2006,,,,4,9/11/1953,53,YEARS,F,WHITE,NOT HISPANIC OR LATINO,4,ARM D,,,
ABC,DM,ABC-04-079,79,12/18/2006,,,,12/11/2006,,,,4,11/11/1933,73,YEARS,F,WHITE,NOT HISPANIC OR LATINO,2,ARM B,,,
ABC,DM,ABC-04-080,80,12/21/2006,,,,12/12/2006,,,,4,5/7/1951,55,YEARS,M,WHITE,NOT HISPANIC OR LATINO,1,ARM A,,,
ABC,DM,ABC-04-125,125,12/29/2006,,,,12/14/2006,,,,4,11/16/1937,69,YEARS,M,WHITE,NOT HISPANIC OR LATINO,4,ARM D,,,
ABC,DM,ABC-04-126,126,1/2/2007,,,,12/13/2006,,,,4,5/13/1957,49,YEARS,M,WHITE,NOT HISPANIC OR LATINO,1,ARM A,,,
ABC,DM,ABC-04-127,127,1/3/2007,,,,12/14/2006,,,,4,3/18/1937,69,YEARS,M,ASIAN,NOT HISPANIC OR LATINO,2,ARM B,,,
ABC,DM,ABC-04-128,128,1/4/2007,,,,12/21/2006,,,,4,5/24/1987,19,YEARS,M,WHITE,NOT HISPANIC OR LATINO,3,ARM C,,,
ABC,DM,ABC-04-129,129,1/5/2007,,,,12/19/2006,,,,4,2/21/1960,46,YEARS,M,ASIAN,NOT HISPANIC OR LATINO,4,ARM D,,,
ABC,DM,ABC-04-130,130,1/8/2007,,,,12/18/2006,,,,4,2/28/1937,69,YEARS,M,WHITE,NOT HISPANIC OR LATINO,3,ARM C,,,
ABC,DM,ABC-04-131,131,1/10/2007,,,,12/18/2006,,,,4,3/10/1935,71,YEARS,M,WHITE,NOT HISPANIC OR LATINO,2,ARM B,,,
ABC,DM,ABC-06-065,65,11/8/2006,,,,10/27/2006,,,,6,4/4/1972,34,YEARS,M,WHITE,NOT HISPANIC OR LATINO,3,ARM C,,,
ABC,DM,ABC-06-066,66,11/14/2006,,,,11/6/2006,,,,6,1/1/1945,61,YEARS,F,WHITE,NOT HISPANIC OR LATINO,2,ARM B,,,
ABC,DM,ABC-06-067,67,11/21/2006,,,,11/14/2006,,,,6,9/23/1958,48,YEARS,F,WHITE,HISPANIC OR LATINO,4,ARM D,,,
ABC,DM,ABC-06-068,68,11/22/2006,,,,11/16/2006,,,,6,9/12/1954,52,YEARS,F,WHITE,NOT HISPANIC OR LATINO,1,ARM A,,,
ABC,DM,ABC-06-069,69,11/27/2006,1/5/2007,,,11/6/2006,1/5/2007,,,6,11/15/1934,72,YEARS,F,WHITE,NOT HISPANIC OR LATINO,1,ARM A,,,
ABC,DM,ABC-06-070,70,11/29/2006,,,,11/17/2006,,,,6,2/1/1980,26,YEARS,M,WHITE,NOT HISPANIC OR LATINO,2,ARM B,,,
ABC,DM,ABC-06-071,71,11/29/2006,,,,11/15/2006,,,,6,3/1/1931,75,YEARS,F,WHITE,NOT HISPANIC OR LATINO,4,ARM D,,,
ABC,DM,ABC-06-072,72,12/5/2006,,,,11/28/2006,,,,6,7/12/1960,46,YEARS,M,WHITE,NOT HISPANIC OR LATINO,3,ARM C,,,
ABC,DM,ABC-06-161,161,12/12/2006,1/4/2007,,,12/8/2006,1/4/2007,,,6,2/3/1958,48,YEARS,M,WHITE,NOT HISPANIC OR LATINO,3,ARM C,,,
ABC,DM,ABC-06-162,162,12/28/2006,,,,12/14/2006,,,,6,12/21/1948,58,YEARS,M,WHITE,NOT HISPANIC OR LATINO,SCRNFAIL,SCREEN FAILURE,,,
ABC,DM,ABC-06-163,163,1/8/2007,,,,12/21/2006,,,,6,4/13/1942,64,YEARS,M,WHITE,NOT HISPANIC OR LATINO,4,ARM D,,,
ABC,DM,ABC-07-009,9,10/18/2006,,,,10/11/2006,,,,7,4/18/1945,61,YEARS,F,WHITE,NOT HISPANIC OR LATINO,3,ARM C,,,
ABC,DM,ABC-07-010,10,11/22/2006,,,,11/15/2006,,,,7,7/12/1960,46,YEARS,F,WHITE,NOT HISPANIC OR LATINO,2,ARM B,,,
ABC,DM,ABC-07-011,11,11/22/2006,,,,11/15/2006,,,,7,1/18/1985,21,YEARS,M,WHITE,NOT HISPANIC OR LATINO,4,ARM D,,,
ABC,DM,ABC-07-012,12,12/13/2006,,,,12/6/2006,,,,7,8/12/1948,58,YEARS,F,WHITE,NOT HISPANIC OR LATINO,1,ARM A,,,
ABC,DM,ABC-07-013,13,12/18/2006,,,,12/11/2006,,,,7,1/29/1961,45,YEARS,M,WHITE,NOT HISPANIC OR LATINO,4,ARM D,,,
ABC,DM,ABC-07-014,14,12/18/2006,,,,12/11/2006,,,,7,4/19/1935,71,YEARS,M,WHITE,NOT HISPANIC OR LATINO,3,ARM C,,,
ABC,DM,ABC-07-015,15,12/20/2006,,,,12/13/2006,,,,7,4/17/1971,35,YEARS,F,WHITE,NOT HISPANIC OR LATINO,2,ARM B,,,
ABC,DM,ABC-07-016,16,12/26/2006,,,,12/18/2006,,,,7,8/6/1957,49,YEARS,M,WHITE,NOT HISPANIC OR LATINO,1,ARM A,,,
ABC,DM,ABC-08-101,101,11/7/2006,,,,10/23/2006,,,,8,3/16/1952,54,YEARS,F,WHITE,NOT HISPANIC OR LATINO,3,ARM C,,,
ABC,DM,ABC-08-102,102,11/9/2006,,,,11/1/2006,,,,8,2/23/1952,54,YEARS,F,WHITE,NOT HISPANIC OR LATINO,4,ARM D,,,
ABC,DM,ABC-08-103,103,11/9/2006,,,,11/2/2006,,,,8,9/17/1973,33,YEARS,M,UNKNOWN,NOT HISPANIC OR LATINO,2,ARM B,,,
ABC,DM,ABC-08-104,104,11/9/2006,,,,11/9/2006,,,,8,7/1/1958,48,YEARS,M,WHITE,NOT HISPANIC OR LATINO,1,ARM A,,,
ABC,DM,ABC-08-105,105,11/13/2006,,,,10/30/2006,,,,8,5/11/1962,44,YEARS,M,WHITE,NOT HISPANIC OR LATINO,3,ARM C,,,
ABC,DM,ABC-08-106,106,11/14/2006,,,,10/30/2006,,,,8,6/17/1946,60,YEARS,M,WHITE,NOT HISPANIC OR LATINO,1,ARM A,,,
ABC,DM,ABC-08-107,107,11/21/2006,1/3/2007,,,11/3/2006,1/3/2007,,,8,11/3/1952,54,YEARS,M,WHITE,NOT HISPANIC OR LATINO,4,ARM D,,,
ABC,DM,ABC-08-108,108,12/22/2006,,,,12/4/2006,,,,8,3/24/1960,46,YEARS,F,WHITE,NOT HISPANIC OR LATINO,2,ARM B,,,
ABC,DM,ABC-09-017,17,10/18/2006,,,,10/6/2006,,,,9,9/28/1945,61,YEARS,M,BLACK OR AFRICAN AMERICAN,HISPANIC OR LATINO,3,ARM C,,,
ABC,DM,ABC-09-018,18,10/18/2006,,,,10/4/2006,,,,9,8/29/1984,22,YEARS,F,WHITE,NOT HISPANIC OR LATINO,2,ARM B,,,
ABC,DM,ABC-09-019,19,10/18/2006,,,,10/6/2006,,,,9,12/6/1960,45,YEARS,M,WHITE,NOT HISPANIC OR LATINO,4,ARM D,,,
ABC,DM,ABC-09-020,20,10/18/2006,,,,10/4/2006,,,,9,9/22/1953,53,YEARS,M,WHITE,NOT HISPANIC OR LATINO,1,ARM A,,,
ABC,DM,ABC-09-021,21,11/1/2006,,,,10/5/2006,,,,9,11/8/1973,32,YEARS,F,BLACK OR AFRICAN AMERICAN,HISPANIC OR LATINO,2,ARM B,,,
ABC,DM,ABC-09-022,22,11/16/2006,,,,11/13/2006,,,,9,11/8/1968,38,YEARS,F,BLACK OR AFRICAN AMERICAN,NOT HISPANIC OR LATINO,4,ARM D,,,
ABC,DM,ABC-09-023,23,11/16/2006,,,,11/14/2006,,,,9,4/3/1965,41,YEARS,M,BLACK OR AFRICAN AMERICAN,NOT HISPANIC OR LATINO,1,ARM A,,,
ABC,DM,ABC-09-024,24,11/16/2006,,,,11/9/2006,,,,9,5/3/1953,53,YEARS,M,BLACK OR AFRICAN AMERICAN,NOT HISPANIC OR LATINO,3,ARM C,,,
ABC,DM,ABC-09-137,137,11/21/2006,,,,11/17/2006,,,,9,10/26/1946,60,YEARS,M,WHITE,NOT HISPANIC OR LATINO,1,ARM A,,,
ABC,DM,ABC-09-138,138,11/21/2006,,,,11/15/2006,,,,9,8/24/1975,31,YEARS,M,WHITE,NOT HISPANIC OR LATINO,4,ARM D,,,
ABC,DM,ABC-09-139,139,11/21/2006,,,,11/17/2006,,,,9,11/13/1985,21,YEARS,F,WHITE,NOT HISPANIC OR LATINO,3,ARM C,,,
ABC,DM,ABC-09-140,140,11/28/2006,,,,11/22/2006,,,,9,1/5/1964,42,YEARS,F,WHITE,NOT HISPANIC OR LATINO,2,ARM B,,,
ABC,DM,ABC-10-041,41,12/20/2006,,,,12/20/2006,,,,10,2/24/1962,44,YEARS,F,WHITE,HISPANIC OR LATINO,2,ARM B,,,
ABC,DM,ABC-10-042,42,1/10/2007,,,,12/18/2006,,,,10,1/4/1982,25,YEARS,F,WHITE,NOT HISPANIC OR LATINO,3,ARM C,,,
ABC,DM,ABC-10-043,43,2/9/2007,,,,12/18/2006,,,,10,9/28/1982,24,YEARS,F,WHITE,NOT HISPANIC OR LATINO,1,ARM A,,,
ABC,DM,ABC-10-145,145,12/8/2006,,,,12/1/2006,,,,10,10/15/1975,31,YEARS,M,UNKNOWN,HISPANIC OR LATINO,1,ARM A,,,
ABC,DM,ABC-10-146,146,12/11/2006,,,,11/29/2006,,,,10,10/19/1977,29,YEARS,M,WHITE,NOT HISPANIC OR LATINO,4,ARM D,,,
ABC,DM,ABC-10-147,147,12/12/2006,,,,12/1/2006,,,,10,7/2/1954,52,YEARS,M,BLACK OR AFRICAN AMERICAN,NOT HISPANIC OR LATINO,3,ARM C,,,
ABC,DM,ABC-10-148,148,12/12/2006,,,,11/30/2006,,,,10,10/1/1963,43,YEARS,M,WHITE,NOT HISPANIC OR LATINO,2,ARM B,,,
ABC,DM,ABC-10-149,149,12/13/2006,,,,11/30/2006,,,,10,7/17/1949,57,YEARS,M,BLACK OR AFRICAN AMERICAN,NOT HISPANIC OR LATINO,1,ARM A,,,
ABC,DM,ABC-10-150,150,12/14/2006,,,,11/29/2006,,,,10,9/7/1981,25,YEARS,M,WHITE,NOT HISPANIC OR LATINO,4,ARM D,,,
ABC,DM,ABC-10-151,151,12/28/2006,,,,12/8/2006,,,,10,6/21/1940,66,YEARS,M,WHITE,HISPANIC OR LATINO,2,ARM B,,,
ABC,DM,ABC-10-152,152,1/8/2007,,,,12/15/2006,,,,10,11/3/1943,63,YEARS,M,WHITE,NOT HISPANIC OR LATINO,3,ARM C,,,
ABC,DM,ABC-11-048,48,1/18/2007,,,,12/28/2006,,,,11,11/12/1968,38,YEARS,F,ASIAN,UNKNOWN,2,ARM B,,,
ABC,DM,ABC-11-093,93,11/8/2006,,,,11/2/2006,,,,11,10/21/1954,52,YEARS,M,WHITE,NOT HISPANIC OR LATINO,2,ARM B,,,
ABC,DM,ABC-11-094,94,11/8/2006,,,,11/6/2006,,,,11,10/3/1966,40,YEARS,M,WHITE,NOT HISPANIC OR LATINO,1,ARM A,,,
ABC,DM,ABC-11-095,95,11/10/2006,,,,11/7/2006,,,,11,8/2/1944,62,YEARS,M,WHITE,HISPANIC OR LATINO,3,ARM C,,,
ABC,DM,ABC-11-096,96,11/27/2006,,,,11/15/2006,,,,11,1/13/1953,53,YEARS,M,WHITE,NOT HISPANIC OR LATINO,4,ARM D,,,
ABC,DM,ABC-11-097,97,11/28/2006,,,,11/8/2006,,,,11,6/21/1982,24,YEARS,F,WHITE,NOT HISPANIC OR LATINO,1,ARM A,,,
ABC,DM,ABC-11-098,98,12/4/2006,,,,11/27/2006,,,,11,4/27/1939,67,YEARS,M,WHITE,HISPANIC OR LATINO,3,ARM C,,,
ABC,DM,ABC-11-099,99,12/8/2006,,,,11/17/2006,,,,11,4/20/1942,64,YEARS,M,WHITE,NOT HISPANIC OR LATINO,4,ARM D,,,
ABC,DM,ABC-11-100,100,1/11/2007,,,,12/18/2006,,,,11,6/8/1976,30,YEARS,F,WHITE,NOT HISPANIC OR LATINO,2,ARM B,,,
ABC,DM,ABC-12-057,57,11/14/2006,,,,10/19/2006,,,,12,1/22/1981,25,YEARS,F,WHITE,NOT HISPANIC OR LATINO,2,ARM B,,,
ABC,DM,ABC-12-058,58,11/15/2006,,,,10/20/2006,,,,12,9/15/1931,75,YEARS,F,WHITE,NOT HISPANIC OR LATINO,1,ARM A,,,
ABC,DM,ABC-12-059,59,11/17/2006,2/8/2007,,,11/3/2006,2/8/2007,,,12,10/18/1966,40,YEARS,F,WHITE,NOT HISPANIC OR LATINO,4,ARM D,,,
ABC,DM,ABC-12-060,60,12/6/2006,,,,10/20/2006,,,,12,3/26/1944,62,YEARS,F,BLACK OR AFRICAN AMERICAN,NOT HISPANIC OR LATINO,3,ARM C,,,
ABC,DM,ABC-12-061,61,1/4/2007,,,,12/13/2006,,,,12,10/29/1959,47,YEARS,F,WHITE,NOT HISPANIC OR LATINO,2,ARM B,,,
ABC,DM,ABC-12-062,62,1/15/2007,,,,12/28/2006,,,,12,12/3/1936,70,YEARS,M,WHITE,NOT HISPANIC OR LATINO,1,ARM A,,,
ABC,DM,ABC-12-063,63,1/23/2007,,,,12/28/2006,,,,12,2/3/1941,65,YEARS,F,WHITE,NOT HISPANIC OR LATINO,3,ARM C,,,
ABC,DM,ABC-13-025,25,10/24/2006,,,,10/17/2006,,,,13,8/12/1982,24,YEARS,M,WHITE,NOT HISPANIC OR LATINO,1,ARM A,,,
ABC,DM,ABC-13-026,26,11/2/2006,,,,10/25/2006,,,,13,5/13/1955,51,YEARS,F,WHITE,NOT HISPANIC OR LATINO,2,ARM B,,,
ABC,DM,ABC-13-027,27,11/2/2006,,,,10/26/2006,,,,13,7/9/1987,19,YEARS,F,WHITE,HISPANIC OR LATINO,3,ARM C,,,
ABC,DM,ABC-13-028,28,11/7/2006,,,,10/30/2006,,,,13,11/10/1958,47,YEARS,M,WHITE,NOT HISPANIC OR LATINO,4,ARM D,,,
ABC,DM,ABC-13-029,29,11/15/2006,,,,11/7/2006,,,,13,5/29/1957,49,YEARS,F,BLACK OR AFRICAN AMERICAN,NOT HISPANIC OR LATINO,3,ARM C,,,
ABC,DM,ABC-13-030,30,11/16/2006,,,,11/8/2006,,,,13,1/18/1943,63,YEARS,M,WHITE,NOT HISPANIC OR LATINO,4,ARM D,,,
ABC,DM,ABC-13-031,31,11/21/2006,,,,11/14/2006,,,,13,11/2/1969,37,YEARS,F,WHITE,NOT HISPANIC OR LATINO,1,ARM A,,,
ABC,DM,ABC-13-032,32,11/21/2006,,,,11/14/2006,,,,13,2/13/1959,47,YEARS,M,BLACK OR AFRICAN AMERICAN,NOT HISPANIC OR LATINO,2,ARM B,,,
ABC,DM,ABC-13-141,141,11/21/2006,12/6/2006,,,11/15/2006,12/6/2006,,,13,12/16/1941,64,YEARS,F,WHITE,NOT HISPANIC OR LATINO,4,ARM D,,,
ABC,DM,ABC-13-142,142,12/14/2006,,,,12/6/2006,,,,13,5/19/1951,55,YEARS,M,WHITE,NOT HISPANIC OR LATINO,3,ARM C,,,
ABC,DM,ABC-13-143,143,12/19/2006,,,,12/11/2006,,,,13,4/12/1973,33,YEARS,M,WHITE,NOT HISPANIC OR LATINO,2,ARM B,,,
ABC,DM,ABC-14-081,81,11/7/2006,,,,11/1/2006,,,,14,2/1/1944,62,YEARS,F,WHITE,NOT HISPANIC OR LATINO,2,ARM B,,,
ABC,DM,ABC-14-082,82,11/13/2006,,,,10/30/2006,,,,14,4/21/1940,66,YEARS,M,WHITE,HISPANIC OR LATINO,4,ARM D,,,
ABC,DM,ABC-14-083,83,11/14/2006,3/6/2007,,,10/31/2006,3/6/2007,,,14,7/16/1967,39,YEARS,F,WHITE,HISPANIC OR LATINO,3,ARM C,,,
ABC,DM,ABC-14-084,84,11/14/2006,,,,10/31/2006,,,,14,10/11/1934,72,YEARS,M,WHITE,NOT HISPANIC OR LATINO,1,ARM A,,,
ABC,DM,ABC-14-085,85,11/15/2006,,,,10/31/2006,,,,14,8/18/1950,56,YEARS,M,WHITE,NOT HISPANIC OR LATINO,1,ARM A,,,
ABC,DM,ABC-14-086,86,11/15/2006,,,,11/6/2006,,,,14,9/26/1957,49,YEARS,M,WHITE,NOT HISPANIC OR LATINO,3,ARM C,,,
ABC,DM,ABC-14-087,87,11/16/2006,,,,11/1/2006,,,,14,8/31/1952,54,YEARS,F,WHITE,NOT HISPANIC OR LATINO,4,ARM D,,,
ABC,DM,ABC-14-088,88,11/20/2006,,,,10/30/2006,,,,14,6/22/1950,56,YEARS,F,BLACK OR AFRICAN AMERICAN,NOT HISPANIC OR LATINO,2,ARM B,,,
ABC,DM,ABC-14-117,117,11/20/2006,,,,11/15/2006,,,,14,10/14/1962,44,YEARS,F,BLACK OR AFRICAN AMERICAN,HISPANIC OR LATINO,1,ARM A,,,
ABC,DM,ABC-14-118,118,11/28/2006,,,,11/13/2006,,,,14,6/24/1972,34,YEARS,M,WHITE,NOT HISPANIC OR LATINO,2,ARM B,,,
ABC,DM,ABC-14-119,119,11/28/2006,1/9/2007,,,10/31/2006,1/9/2007,,,14,8/26/1958,48,YEARS,M,WHITE,HISPANIC OR LATINO,3,ARM C,,,
ABC,DM,ABC-14-120,120,11/28/2006,,,,10/30/2006,,,,14,5/25/1936,70,YEARS,M,WHITE,NOT HISPANIC OR LATINO,4,ARM D,,,
ABC,DM,ABC-14-121,121,11/29/2006,,,,10/30/2006,,,,14,12/5/1950,55,YEARS,M,WHITE,NOT HISPANIC OR LATINO,3,ARM C,,,
ABC,DM,ABC-14-122,122,12/18/2006,,,,12/11/2006,,,,14,5/3/1972,34,YEARS,M,WHITE,HISPANIC OR LATINO,4,ARM D,,,
ABC,DM,ABC-14-123,123,12/19/2006,,,,11/21/2006,,,,14,5/23/1954,52,YEARS,F,ASIAN,NOT HISPANIC OR LATINO,1,ARM A,,,
ABC,DM,ABC-14-124,124,12/28/2006,,,,12/19/2006,,,,14,6/29/1951,55,YEARS,M,WHITE,NOT HISPANIC OR LATINO,2,ARM B,,,
ABC,DM,ABC-15-153,153,1/4/2007,2/22/2007,,,12/21/2006,2/22/2007,,,15,10/22/1941,65,YEARS,F,WHITE,NOT HISPANIC OR LATINO,4,ARM D,,,
ABC,DM,ABC-15-154,154,1/10/2007,2/12/2007,,,12/29/2006,2/12/2007,,,15,6/5/1936,70,YEARS,F,WHITE,NOT HISPANIC OR LATINO,3,ARM C,,,
ABC,DM,ABC-15-155,155,1/11/2007,,,,12/28/2006,,,,15,5/27/1950,56,YEARS,F,WHITE,NOT HISPANIC OR LATINO,1,ARM A,,,
ABC,DM,ABC-15-156,156,1/11/2007,,,,12/28/2006,,,,15,1/9/1972,35,YEARS,F,WHITE,NOT HISPANIC OR LATINO,2,ARM B,,,
ABC,DM,ABC-16-045,45,12/28/2006,,,,12/19/2006,,,,16,8/18/1938,68,YEARS,M,WHITE,NOT HISPANIC OR LATINO,3,ARM C,,,
ABC,DM,ABC-16-046,46,12/28/2006,1/29/2007,,,12/21/2006,1/29/2007,,,16,7/21/1935,71,YEARS,F,WHITE,NOT HISPANIC OR LATINO,4,ARM D,,,
ABC,DM,ABC-16-047,47,1/2/2007,2/1/2007,,,12/19/2006,2/1/2007,,,16,4/20/1932,74,YEARS,M,WHITE,NOT HISPANIC OR LATINO,1,ARM A,,,
ABC,DM,ABC-16-157,157,12/14/2006,,,,12/7/2006,,,,16,9/4/1944,62,YEARS,M,WHITE,HISPANIC OR LATINO,1,ARM A,,,
ABC,DM,ABC-16-158,158,12/19/2006,,,,12/5/2006,,,,16,5/22/1935,71,YEARS,M,WHITE,NOT HISPANIC OR LATINO,2,ARM B,,,
ABC,DM,ABC-16-159,159,12/21/2006,,,,12/14/2006,,,,16,7/19/1948,58,YEARS,F,WHITE,NOT HISPANIC OR LATINO,3,ARM C,,,
ABC,DM,ABC-16-160,160,12/28/2006,,,,12/19/2006,,,,16,3/8/1962,44,YEARS,M,WHITE,HISPANIC OR LATINO,4,ARM D,,,
